"","run","subid","sequence","country","age","gender","englishNative","ethnicity","education","religionChild","religionNow","job","comments","phase","predicate","trialNum","leftCharacter","rightCharacter","response","rt","country_selfrep","responseNum"
"1","us_run_01","us_run_01_1","sequence2","us",47,"male","yes_only","white","college_some","other, none","none","contractor/laborer",NA,"practice","colder",1,"icecream","pizza","much more left",8502,"usa",-2
"2","us_run_01","us_run_01_1","sequence2","us",47,"male","yes_only","white","college_some","other, none","none","contractor/laborer",NA,"practice","sweeter",2,"grapes","strawberries","slightly more right",8420,"usa",1
"3","us_run_01","us_run_01_1","sequence2","us",47,"male","yes_only","white","college_some","other, none","none","contractor/laborer",NA,"test","thinking",3,"kid","robot","much more left",6750,"usa",-2
"4","us_run_01","us_run_01_1","sequence2","us",47,"male","yes_only","white","college_some","other, none","none","contractor/laborer",NA,"test","thinking",4,"baby","bug","much more left",9822,"usa",-2
"5","us_run_01","us_run_01_1","sequence2","us",47,"male","yes_only","white","college_some","other, none","none","contractor/laborer",NA,"test","thinking",5,"stapler","bear","much more right",7142,"usa",2
"6","us_run_01","us_run_01_1","sequence2","us",47,"male","yes_only","white","college_some","other, none","none","contractor/laborer",NA,"test","thinking",6,"car","dog","much more right",6789,"usa",2
"7","us_run_01","us_run_01_1","sequence2","us",47,"male","yes_only","white","college_some","other, none","none","contractor/laborer",NA,"test","thinking",7,"bear","grownup","slightly more right",3334,"usa",1
"8","us_run_01","us_run_01_1","sequence2","us",47,"male","yes_only","white","college_some","other, none","none","contractor/laborer",NA,"test","thinking",8,"robot","computer","both equally",3176,"usa",0
"9","us_run_01","us_run_01_1","sequence2","us",47,"male","yes_only","white","college_some","other, none","none","contractor/laborer",NA,"test","thinking",9,"stapler","car","both equally",2110,"usa",0
"10","us_run_01","us_run_01_1","sequence2","us",47,"male","yes_only","white","college_some","other, none","none","contractor/laborer",NA,"test","hunger",10,"stapler","computer","both equally",5260,"usa",0
"11","us_run_01","us_run_01_1","sequence2","us",47,"male","yes_only","white","college_some","other, none","none","contractor/laborer",NA,"test","hunger",11,"robot","baby","much more right",2857,"usa",2
"12","us_run_01","us_run_01_1","sequence2","us",47,"male","yes_only","white","college_some","other, none","none","contractor/laborer",NA,"test","hunger",12,"dog","bear","both equally",1560,"usa",0
"13","us_run_01","us_run_01_1","sequence2","us",47,"male","yes_only","white","college_some","other, none","none","contractor/laborer",NA,"test","hunger",13,"grownup","bug","both equally",7790,"usa",0
"14","us_run_01","us_run_01_1","sequence2","us",47,"male","yes_only","white","college_some","other, none","none","contractor/laborer",NA,"test","hunger",14,"computer","kid","slightly more right",1401,"usa",1
"15","us_run_01","us_run_01_1","sequence2","us",47,"male","yes_only","white","college_some","other, none","none","contractor/laborer",NA,"test","hunger",15,"car","robot","both equally",2300,"usa",0
"16","us_run_01","us_run_01_1","sequence2","us",47,"male","yes_only","white","college_some","other, none","none","contractor/laborer",NA,"test","hunger",16,"grownup","stapler","much more left",2320,"usa",-2
"17","us_run_01","us_run_01_1","sequence2","us",47,"male","yes_only","white","college_some","other, none","none","contractor/laborer",NA,"test","hunger",17,"car","bug","much more right",1713,"usa",2
"18","us_run_01","us_run_01_1","sequence2","us",47,"male","yes_only","white","college_some","other, none","none","contractor/laborer",NA,"test","feelings",18,"kid","bug","much more left",11117,"usa",-2
"19","us_run_01","us_run_01_1","sequence2","us",47,"male","yes_only","white","college_some","other, none","none","contractor/laborer",NA,"test","feelings",19,"stapler","robot","both equally",2416,"usa",0
"20","us_run_01","us_run_01_1","sequence2","us",47,"male","yes_only","white","college_some","other, none","none","contractor/laborer",NA,"test","feelings",20,"computer","bear","much more right",2559,"usa",2
"21","us_run_01","us_run_01_1","sequence2","us",47,"male","yes_only","white","college_some","other, none","none","contractor/laborer",NA,"test","feelings",21,"kid","baby","slightly more left",5360,"usa",-1
"22","us_run_01","us_run_01_1","sequence2","us",47,"male","yes_only","white","college_some","other, none","none","contractor/laborer",NA,"test","feelings",22,"grownup","dog","slightly more left",2598,"usa",-1
"23","us_run_01","us_run_01_1","sequence2","us",47,"male","yes_only","white","college_some","other, none","none","contractor/laborer",NA,"test","feelings",23,"baby","car","much more left",1544,"usa",-2
"24","us_run_01","us_run_01_1","sequence2","us",47,"male","yes_only","white","college_some","other, none","none","contractor/laborer",NA,"test","feelings",24,"robot","bug","much more right",4403,"usa",2
"25","us_run_01","us_run_01_1","sequence2","us",47,"male","yes_only","white","college_some","other, none","none","contractor/laborer",NA,"test","feelings",25,"stapler","dog","much more right",1520,"usa",2
"26","us_run_01","us_run_01_2","sequence4","us",35,"male","yes_only","white","college_some","none","other","Unemployed","This one was kinda fun.","practice","colder",1,"pizza","icecream","much more right",5104,"USA",2
"27","us_run_01","us_run_01_2","sequence4","us",35,"male","yes_only","white","college_some","none","other","Unemployed","This one was kinda fun.","practice","sweeter",2,"strawberries","grapes","slightly more left",5356,"USA",-1
"28","us_run_01","us_run_01_2","sequence4","us",35,"male","yes_only","white","college_some","none","other","Unemployed","This one was kinda fun.","test","feelings",3,"baby","bear","both equally",3765,"USA",0
"29","us_run_01","us_run_01_2","sequence4","us",35,"male","yes_only","white","college_some","none","other","Unemployed","This one was kinda fun.","test","feelings",4,"car","computer","both equally",5826,"USA",0
"30","us_run_01","us_run_01_2","sequence4","us",35,"male","yes_only","white","college_some","none","other","Unemployed","This one was kinda fun.","test","feelings",5,"grownup","robot","much more left",1996,"USA",-2
"31","us_run_01","us_run_01_2","sequence4","us",35,"male","yes_only","white","college_some","none","other","Unemployed","This one was kinda fun.","test","feelings",6,"bug","dog","slightly more right",3121,"USA",1
"32","us_run_01","us_run_01_2","sequence4","us",35,"male","yes_only","white","college_some","none","other","Unemployed","This one was kinda fun.","test","feelings",7,"kid","stapler","much more left",1844,"USA",-2
"33","us_run_01","us_run_01_2","sequence4","us",35,"male","yes_only","white","college_some","none","other","Unemployed","This one was kinda fun.","test","feelings",8,"car","bear","much more right",1726,"USA",2
"34","us_run_01","us_run_01_2","sequence4","us",35,"male","yes_only","white","college_some","none","other","Unemployed","This one was kinda fun.","test","feelings",9,"bug","computer","much more left",1942,"USA",-2
"35","us_run_01","us_run_01_2","sequence4","us",35,"male","yes_only","white","college_some","none","other","Unemployed","This one was kinda fun.","test","feelings",10,"dog","kid","both equally",3054,"USA",0
"36","us_run_01","us_run_01_2","sequence4","us",35,"male","yes_only","white","college_some","none","other","Unemployed","This one was kinda fun.","test","hunger",11,"bug","robot","much more left",1558,"USA",-2
"37","us_run_01","us_run_01_2","sequence4","us",35,"male","yes_only","white","college_some","none","other","Unemployed","This one was kinda fun.","test","hunger",12,"baby","car","much more left",1166,"USA",-2
"38","us_run_01","us_run_01_2","sequence4","us",35,"male","yes_only","white","college_some","none","other","Unemployed","This one was kinda fun.","test","hunger",13,"bug","kid","slightly more right",2823,"USA",1
"39","us_run_01","us_run_01_2","sequence4","us",35,"male","yes_only","white","college_some","none","other","Unemployed","This one was kinda fun.","test","hunger",14,"grownup","dog","both equally",2533,"USA",0
"40","us_run_01","us_run_01_2","sequence4","us",35,"male","yes_only","white","college_some","none","other","Unemployed","This one was kinda fun.","test","hunger",15,"stapler","robot","both equally",1749,"USA",0
"41","us_run_01","us_run_01_2","sequence4","us",35,"male","yes_only","white","college_some","none","other","Unemployed","This one was kinda fun.","test","hunger",16,"baby","kid","both equally",1446,"USA",0
"42","us_run_01","us_run_01_2","sequence4","us",35,"male","yes_only","white","college_some","none","other","Unemployed","This one was kinda fun.","test","hunger",17,"bear","computer","much more left",1542,"USA",-2
"43","us_run_01","us_run_01_2","sequence4","us",35,"male","yes_only","white","college_some","none","other","Unemployed","This one was kinda fun.","test","hunger",18,"dog","stapler","much more left",1094,"USA",-2
"44","us_run_01","us_run_01_2","sequence4","us",35,"male","yes_only","white","college_some","none","other","Unemployed","This one was kinda fun.","test","thinking",19,"stapler","grownup","much more right",1512,"USA",2
"45","us_run_01","us_run_01_2","sequence4","us",35,"male","yes_only","white","college_some","none","other","Unemployed","This one was kinda fun.","test","thinking",20,"bug","car","much more left",2054,"USA",-2
"46","us_run_01","us_run_01_2","sequence4","us",35,"male","yes_only","white","college_some","none","other","Unemployed","This one was kinda fun.","test","thinking",21,"stapler","computer","much more right",2750,"USA",2
"47","us_run_01","us_run_01_2","sequence4","us",35,"male","yes_only","white","college_some","none","other","Unemployed","This one was kinda fun.","test","thinking",22,"car","robot","much more right",2550,"USA",2
"48","us_run_01","us_run_01_2","sequence4","us",35,"male","yes_only","white","college_some","none","other","Unemployed","This one was kinda fun.","test","thinking",23,"bear","dog","both equally",1582,"USA",0
"49","us_run_01","us_run_01_2","sequence4","us",35,"male","yes_only","white","college_some","none","other","Unemployed","This one was kinda fun.","test","thinking",24,"computer","kid","much more right",1253,"USA",2
"50","us_run_01","us_run_01_2","sequence4","us",35,"male","yes_only","white","college_some","none","other","Unemployed","This one was kinda fun.","test","thinking",25,"grownup","bug","slightly more left",3821,"USA",-1
"51","us_run_01","us_run_01_2","sequence4","us",35,"male","yes_only","white","college_some","none","other","Unemployed","This one was kinda fun.","test","thinking",26,"baby","robot","slightly more left",3550,"USA",-1
"52","us_run_01","us_run_01_3","sequence4","us",34,"male","yes_only","white","college_assocDegree","christianity_protestant","none","Pipeliner",NA,"practice","colder",1,"icecream","pizza","much more left",5349,"USA",-2
"53","us_run_01","us_run_01_3","sequence4","us",34,"male","yes_only","white","college_assocDegree","christianity_protestant","none","Pipeliner",NA,"practice","sweeter",2,"grapes","strawberries","slightly more right",5713,"USA",1
"54","us_run_01","us_run_01_3","sequence4","us",34,"male","yes_only","white","college_assocDegree","christianity_protestant","none","Pipeliner",NA,"test","feelings",3,"baby","bear","much more left",5071,"USA",-2
"55","us_run_01","us_run_01_3","sequence4","us",34,"male","yes_only","white","college_assocDegree","christianity_protestant","none","Pipeliner",NA,"test","feelings",4,"bug","dog","much more right",4400,"USA",2
"56","us_run_01","us_run_01_3","sequence4","us",34,"male","yes_only","white","college_assocDegree","christianity_protestant","none","Pipeliner",NA,"test","feelings",5,"grownup","robot","much more left",2257,"USA",-2
"57","us_run_01","us_run_01_3","sequence4","us",34,"male","yes_only","white","college_assocDegree","christianity_protestant","none","Pipeliner",NA,"test","feelings",6,"car","computer","both equally",2750,"USA",0
"58","us_run_01","us_run_01_3","sequence4","us",34,"male","yes_only","white","college_assocDegree","christianity_protestant","none","Pipeliner",NA,"test","feelings",7,"stapler","kid","much more right",2152,"USA",2
"59","us_run_01","us_run_01_3","sequence4","us",34,"male","yes_only","white","college_assocDegree","christianity_protestant","none","Pipeliner",NA,"test","feelings",8,"bug","computer","slightly more left",5796,"USA",-1
"60","us_run_01","us_run_01_3","sequence4","us",34,"male","yes_only","white","college_assocDegree","christianity_protestant","none","Pipeliner",NA,"test","feelings",9,"bear","car","much more left",1889,"USA",-2
"61","us_run_01","us_run_01_3","sequence4","us",34,"male","yes_only","white","college_assocDegree","christianity_protestant","none","Pipeliner",NA,"test","feelings",10,"dog","kid","slightly more right",4485,"USA",1
"62","us_run_01","us_run_01_3","sequence4","us",34,"male","yes_only","white","college_assocDegree","christianity_protestant","none","Pipeliner",NA,"test","hunger",11,"grownup","dog","both equally",4995,"USA",0
"63","us_run_01","us_run_01_3","sequence4","us",34,"male","yes_only","white","college_assocDegree","christianity_protestant","none","Pipeliner",NA,"test","hunger",12,"kid","bug","much more left",4517,"USA",-2
"64","us_run_01","us_run_01_3","sequence4","us",34,"male","yes_only","white","college_assocDegree","christianity_protestant","none","Pipeliner",NA,"test","hunger",13,"bear","computer","much more left",1058,"USA",-2
"65","us_run_01","us_run_01_3","sequence4","us",34,"male","yes_only","white","college_assocDegree","christianity_protestant","none","Pipeliner",NA,"test","hunger",14,"stapler","dog","much more right",1314,"USA",2
"66","us_run_01","us_run_01_3","sequence4","us",34,"male","yes_only","white","college_assocDegree","christianity_protestant","none","Pipeliner",NA,"test","hunger",15,"car","baby","much more right",1094,"USA",2
"67","us_run_01","us_run_01_3","sequence4","us",34,"male","yes_only","white","college_assocDegree","christianity_protestant","none","Pipeliner",NA,"test","hunger",16,"bug","robot","much more left",1635,"USA",-2
"68","us_run_01","us_run_01_3","sequence4","us",34,"male","yes_only","white","college_assocDegree","christianity_protestant","none","Pipeliner",NA,"test","hunger",17,"kid","baby","both equally",1758,"USA",0
"69","us_run_01","us_run_01_3","sequence4","us",34,"male","yes_only","white","college_assocDegree","christianity_protestant","none","Pipeliner",NA,"test","hunger",18,"robot","stapler","both equally",1522,"USA",0
"70","us_run_01","us_run_01_3","sequence4","us",34,"male","yes_only","white","college_assocDegree","christianity_protestant","none","Pipeliner",NA,"test","thinking",19,"grownup","stapler","much more left",1289,"USA",-2
"71","us_run_01","us_run_01_3","sequence4","us",34,"male","yes_only","white","college_assocDegree","christianity_protestant","none","Pipeliner",NA,"test","thinking",20,"bear","dog","both equally",3862,"USA",0
"72","us_run_01","us_run_01_3","sequence4","us",34,"male","yes_only","white","college_assocDegree","christianity_protestant","none","Pipeliner",NA,"test","thinking",21,"bug","car","much more left",1680,"USA",-2
"73","us_run_01","us_run_01_3","sequence4","us",34,"male","yes_only","white","college_assocDegree","christianity_protestant","none","Pipeliner",NA,"test","thinking",22,"computer","stapler","both equally",2325,"USA",0
"74","us_run_01","us_run_01_3","sequence4","us",34,"male","yes_only","white","college_assocDegree","christianity_protestant","none","Pipeliner",NA,"test","thinking",23,"baby","robot","much more left",1273,"USA",-2
"75","us_run_01","us_run_01_3","sequence4","us",34,"male","yes_only","white","college_assocDegree","christianity_protestant","none","Pipeliner",NA,"test","thinking",24,"grownup","bug","much more left",2107,"USA",-2
"76","us_run_01","us_run_01_3","sequence4","us",34,"male","yes_only","white","college_assocDegree","christianity_protestant","none","Pipeliner",NA,"test","thinking",25,"robot","car","both equally",1158,"USA",0
"77","us_run_01","us_run_01_3","sequence4","us",34,"male","yes_only","white","college_assocDegree","christianity_protestant","none","Pipeliner",NA,"test","thinking",26,"kid","computer","much more left",981,"USA",-2
"78","us_run_01","us_run_01_4","sequence1","us",68,"male","yes_only","white","college_bachDegree","christianity_protestant","christianity_protestant","Accountant",NA,"practice","colder",1,"icecream","pizza","much more left",2196,"USA",-2
"79","us_run_01","us_run_01_4","sequence1","us",68,"male","yes_only","white","college_bachDegree","christianity_protestant","christianity_protestant","Accountant",NA,"practice","sweeter",2,"grapes","strawberries","slightly more right",2886,"USA",1
"80","us_run_01","us_run_01_4","sequence1","us",68,"male","yes_only","white","college_bachDegree","christianity_protestant","christianity_protestant","Accountant",NA,"test","thinking",3,"kid","baby","much more left",2348,"USA",-2
"81","us_run_01","us_run_01_4","sequence1","us",68,"male","yes_only","white","college_bachDegree","christianity_protestant","christianity_protestant","Accountant",NA,"test","thinking",4,"robot","stapler","both equally",2219,"USA",0
"82","us_run_01","us_run_01_4","sequence1","us",68,"male","yes_only","white","college_bachDegree","christianity_protestant","christianity_protestant","Accountant",NA,"test","thinking",5,"kid","bug","much more left",1470,"USA",-2
"83","us_run_01","us_run_01_4","sequence1","us",68,"male","yes_only","white","college_bachDegree","christianity_protestant","christianity_protestant","Accountant",NA,"test","thinking",6,"baby","car","much more left",1828,"USA",-2
"84","us_run_01","us_run_01_4","sequence1","us",68,"male","yes_only","white","college_bachDegree","christianity_protestant","christianity_protestant","Accountant",NA,"test","thinking",7,"dog","stapler","much more left",1419,"USA",-2
"85","us_run_01","us_run_01_4","sequence1","us",68,"male","yes_only","white","college_bachDegree","christianity_protestant","christianity_protestant","Accountant",NA,"test","thinking",8,"computer","bear","much more right",1492,"USA",2
"86","us_run_01","us_run_01_4","sequence1","us",68,"male","yes_only","white","college_bachDegree","christianity_protestant","christianity_protestant","Accountant",NA,"test","thinking",9,"bug","robot","much more left",1483,"USA",-2
"87","us_run_01","us_run_01_4","sequence1","us",68,"male","yes_only","white","college_bachDegree","christianity_protestant","christianity_protestant","Accountant",NA,"test","thinking",10,"grownup","dog","much more left",1183,"USA",-2
"88","us_run_01","us_run_01_4","sequence1","us",68,"male","yes_only","white","college_bachDegree","christianity_protestant","christianity_protestant","Accountant",NA,"test","feelings",11,"grownup","kid","much more left",152882,"USA",-2
"89","us_run_01","us_run_01_4","sequence1","us",68,"male","yes_only","white","college_bachDegree","christianity_protestant","christianity_protestant","Accountant",NA,"test","feelings",12,"stapler","baby","much more right",1774,"USA",2
"90","us_run_01","us_run_01_4","sequence1","us",68,"male","yes_only","white","college_bachDegree","christianity_protestant","christianity_protestant","Accountant",NA,"test","feelings",13,"bug","bear","much more right",1716,"USA",2
"91","us_run_01","us_run_01_4","sequence1","us",68,"male","yes_only","white","college_bachDegree","christianity_protestant","christianity_protestant","Accountant",NA,"test","feelings",14,"robot","dog","much more right",1052,"USA",2
"92","us_run_01","us_run_01_4","sequence1","us",68,"male","yes_only","white","college_bachDegree","christianity_protestant","christianity_protestant","Accountant",NA,"test","feelings",15,"computer","grownup","much more right",1732,"USA",2
"93","us_run_01","us_run_01_4","sequence1","us",68,"male","yes_only","white","college_bachDegree","christianity_protestant","christianity_protestant","Accountant",NA,"test","feelings",16,"kid","car","much more left",1507,"USA",-2
"94","us_run_01","us_run_01_4","sequence1","us",68,"male","yes_only","white","college_bachDegree","christianity_protestant","christianity_protestant","Accountant",NA,"test","feelings",17,"dog","baby","slightly more right",3363,"USA",1
"95","us_run_01","us_run_01_4","sequence1","us",68,"male","yes_only","white","college_bachDegree","christianity_protestant","christianity_protestant","Accountant",NA,"test","hunger",18,"car","dog","much more right",2094,"USA",2
"96","us_run_01","us_run_01_4","sequence1","us",68,"male","yes_only","white","college_bachDegree","christianity_protestant","christianity_protestant","Accountant",NA,"test","hunger",19,"bear","grownup","much more right",1706,"USA",2
"97","us_run_01","us_run_01_4","sequence1","us",68,"male","yes_only","white","college_bachDegree","christianity_protestant","christianity_protestant","Accountant",NA,"test","hunger",20,"baby","bug","much more left",1661,"USA",-2
"98","us_run_01","us_run_01_4","sequence1","us",68,"male","yes_only","white","college_bachDegree","christianity_protestant","christianity_protestant","Accountant",NA,"test","hunger",21,"stapler","car","both equally",1699,"USA",0
"99","us_run_01","us_run_01_4","sequence1","us",68,"male","yes_only","white","college_bachDegree","christianity_protestant","christianity_protestant","Accountant",NA,"test","hunger",22,"computer","robot","both equally",1171,"USA",0
"100","us_run_01","us_run_01_4","sequence1","us",68,"male","yes_only","white","college_bachDegree","christianity_protestant","christianity_protestant","Accountant",NA,"test","hunger",23,"bear","stapler","both equally",1035,"USA",0
"101","us_run_01","us_run_01_4","sequence1","us",68,"male","yes_only","white","college_bachDegree","christianity_protestant","christianity_protestant","Accountant",NA,"test","hunger",24,"robot","kid","much more right",1955,"USA",2
"102","us_run_01","us_run_01_5","sequence1","us",24,"male","yes_only","white","hs_diploma","none","none","INTERNET","THANK YOU :)","practice","colder",1,"pizza","icecream","much more right",3070,"USA",2
"103","us_run_01","us_run_01_5","sequence1","us",24,"male","yes_only","white","hs_diploma","none","none","INTERNET","THANK YOU :)","practice","sweeter",2,"strawberries","grapes","much more right",2449,"USA",2
"104","us_run_01","us_run_01_5","sequence1","us",24,"male","yes_only","white","hs_diploma","none","none","INTERNET","THANK YOU :)","test","thinking",3,"bug","robot","much more left",2854,"USA",-2
"105","us_run_01","us_run_01_5","sequence1","us",24,"male","yes_only","white","hs_diploma","none","none","INTERNET","THANK YOU :)","test","thinking",4,"stapler","dog","much more right",1626,"USA",2
"106","us_run_01","us_run_01_5","sequence1","us",24,"male","yes_only","white","hs_diploma","none","none","INTERNET","THANK YOU :)","test","thinking",5,"bug","kid","much more right",1734,"USA",2
"107","us_run_01","us_run_01_5","sequence1","us",24,"male","yes_only","white","hs_diploma","none","none","INTERNET","THANK YOU :)","test","thinking",6,"computer","bear","much more right",1829,"USA",2
"108","us_run_01","us_run_01_5","sequence1","us",24,"male","yes_only","white","hs_diploma","none","none","INTERNET","THANK YOU :)","test","thinking",7,"car","baby","much more right",916,"USA",2
"109","us_run_01","us_run_01_5","sequence1","us",24,"male","yes_only","white","hs_diploma","none","none","INTERNET","THANK YOU :)","test","thinking",8,"dog","grownup","much more right",836,"USA",2
"110","us_run_01","us_run_01_5","sequence1","us",24,"male","yes_only","white","hs_diploma","none","none","INTERNET","THANK YOU :)","test","thinking",9,"robot","stapler","much more left",2299,"USA",-2
"111","us_run_01","us_run_01_5","sequence1","us",24,"male","yes_only","white","hs_diploma","none","none","INTERNET","THANK YOU :)","test","thinking",10,"kid","baby","both equally",1548,"USA",0
"112","us_run_01","us_run_01_5","sequence1","us",24,"male","yes_only","white","hs_diploma","none","none","INTERNET","THANK YOU :)","test","feelings",11,"computer","grownup","much more right",2509,"USA",2
"113","us_run_01","us_run_01_5","sequence1","us",24,"male","yes_only","white","hs_diploma","none","none","INTERNET","THANK YOU :)","test","feelings",12,"dog","baby","both equally",1355,"USA",0
"114","us_run_01","us_run_01_5","sequence1","us",24,"male","yes_only","white","hs_diploma","none","none","INTERNET","THANK YOU :)","test","feelings",13,"car","kid","much more right",1171,"USA",2
"115","us_run_01","us_run_01_5","sequence1","us",24,"male","yes_only","white","hs_diploma","none","none","INTERNET","THANK YOU :)","test","feelings",14,"stapler","baby","much more right",1020,"USA",2
"116","us_run_01","us_run_01_5","sequence1","us",24,"male","yes_only","white","hs_diploma","none","none","INTERNET","THANK YOU :)","test","feelings",15,"bug","bear","both equally",1274,"USA",0
"117","us_run_01","us_run_01_5","sequence1","us",24,"male","yes_only","white","hs_diploma","none","none","INTERNET","THANK YOU :)","test","feelings",16,"grownup","kid","both equally",1332,"USA",0
"118","us_run_01","us_run_01_5","sequence1","us",24,"male","yes_only","white","hs_diploma","none","none","INTERNET","THANK YOU :)","test","feelings",17,"dog","robot","much more left",1364,"USA",-2
"119","us_run_01","us_run_01_5","sequence1","us",24,"male","yes_only","white","hs_diploma","none","none","INTERNET","THANK YOU :)","test","hunger",18,"stapler","car","both equally",1637,"USA",0
"120","us_run_01","us_run_01_5","sequence1","us",24,"male","yes_only","white","hs_diploma","none","none","INTERNET","THANK YOU :)","test","hunger",19,"grownup","bear","both equally",2309,"USA",0
"121","us_run_01","us_run_01_5","sequence1","us",24,"male","yes_only","white","hs_diploma","none","none","INTERNET","THANK YOU :)","test","hunger",20,"baby","bug","both equally",724,"USA",0
"122","us_run_01","us_run_01_5","sequence1","us",24,"male","yes_only","white","hs_diploma","none","none","INTERNET","THANK YOU :)","test","hunger",21,"stapler","bear","much more right",1610,"USA",2
"123","us_run_01","us_run_01_5","sequence1","us",24,"male","yes_only","white","hs_diploma","none","none","INTERNET","THANK YOU :)","test","hunger",22,"computer","robot","both equally",2011,"USA",0
"124","us_run_01","us_run_01_5","sequence1","us",24,"male","yes_only","white","hs_diploma","none","none","INTERNET","THANK YOU :)","test","hunger",23,"car","dog","much more right",1364,"USA",2
"125","us_run_01","us_run_01_5","sequence1","us",24,"male","yes_only","white","hs_diploma","none","none","INTERNET","THANK YOU :)","test","hunger",24,"robot","kid","much more right",1174,"USA",2
"126","us_run_01","us_run_01_6","sequence3","us",61,"male","yes_only","white","college_assocDegree","other","other","Computer Operator","No problems, fun survey","practice","colder",1,"pizza","icecream","much more right",7687,"USA",2
"127","us_run_01","us_run_01_6","sequence3","us",61,"male","yes_only","white","college_assocDegree","other","other","Computer Operator","No problems, fun survey","practice","sweeter",2,"strawberries","grapes","both equally",14195,"USA",0
"128","us_run_01","us_run_01_6","sequence3","us",61,"male","yes_only","white","college_assocDegree","other","other","Computer Operator","No problems, fun survey","test","feelings",3,"robot","car","both equally",8085,"USA",0
"129","us_run_01","us_run_01_6","sequence3","us",61,"male","yes_only","white","college_assocDegree","other","other","Computer Operator","No problems, fun survey","test","feelings",4,"computer","kid","much more right",4530,"USA",2
"130","us_run_01","us_run_01_6","sequence3","us",61,"male","yes_only","white","college_assocDegree","other","other","Computer Operator","No problems, fun survey","test","feelings",5,"car","bug","much more right",4667,"USA",2
"131","us_run_01","us_run_01_6","sequence3","us",61,"male","yes_only","white","college_assocDegree","other","other","Computer Operator","No problems, fun survey","test","feelings",6,"stapler","grownup","much more right",3492,"USA",2
"132","us_run_01","us_run_01_6","sequence3","us",61,"male","yes_only","white","college_assocDegree","other","other","Computer Operator","No problems, fun survey","test","feelings",7,"dog","bear","slightly more left",8715,"USA",-1
"133","us_run_01","us_run_01_6","sequence3","us",61,"male","yes_only","white","college_assocDegree","other","other","Computer Operator","No problems, fun survey","test","feelings",8,"robot","baby","much more right",1948,"USA",2
"134","us_run_01","us_run_01_6","sequence3","us",61,"male","yes_only","white","college_assocDegree","other","other","Computer Operator","No problems, fun survey","test","feelings",9,"bug","grownup","much more right",4464,"USA",2
"135","us_run_01","us_run_01_6","sequence3","us",61,"male","yes_only","white","college_assocDegree","other","other","Computer Operator","No problems, fun survey","test","feelings",10,"stapler","computer","both equally",2520,"USA",0
"136","us_run_01","us_run_01_6","sequence3","us",61,"male","yes_only","white","college_assocDegree","other","other","Computer Operator","No problems, fun survey","test","thinking",11,"dog","computer","much more left",11577,"USA",-2
"137","us_run_01","us_run_01_6","sequence3","us",61,"male","yes_only","white","college_assocDegree","other","other","Computer Operator","No problems, fun survey","test","thinking",12,"grownup","baby","much more left",2923,"USA",-2
"138","us_run_01","us_run_01_6","sequence3","us",61,"male","yes_only","white","college_assocDegree","other","other","Computer Operator","No problems, fun survey","test","thinking",13,"bear","kid","much more right",3656,"USA",2
"139","us_run_01","us_run_01_6","sequence3","us",61,"male","yes_only","white","college_assocDegree","other","other","Computer Operator","No problems, fun survey","test","thinking",14,"baby","computer","much more left",1948,"USA",-2
"140","us_run_01","us_run_01_6","sequence3","us",61,"male","yes_only","white","college_assocDegree","other","other","Computer Operator","No problems, fun survey","test","thinking",15,"stapler","bug","much more right",5239,"USA",2
"141","us_run_01","us_run_01_6","sequence3","us",61,"male","yes_only","white","college_assocDegree","other","other","Computer Operator","No problems, fun survey","test","thinking",16,"car","grownup","much more right",1559,"USA",2
"142","us_run_01","us_run_01_6","sequence3","us",61,"male","yes_only","white","college_assocDegree","other","other","Computer Operator","No problems, fun survey","test","thinking",17,"bear","robot","much more left",1967,"USA",-2
"143","us_run_01","us_run_01_6","sequence3","us",61,"male","yes_only","white","college_assocDegree","other","other","Computer Operator","No problems, fun survey","test","hunger",18,"dog","bug","both equally",3568,"USA",0
"144","us_run_01","us_run_01_6","sequence3","us",61,"male","yes_only","white","college_assocDegree","other","other","Computer Operator","No problems, fun survey","test","hunger",19,"grownup","robot","much more left",2385,"USA",-2
"145","us_run_01","us_run_01_6","sequence3","us",61,"male","yes_only","white","college_assocDegree","other","other","Computer Operator","No problems, fun survey","test","hunger",20,"computer","car","both equally",2303,"USA",0
"146","us_run_01","us_run_01_6","sequence3","us",61,"male","yes_only","white","college_assocDegree","other","other","Computer Operator","No problems, fun survey","test","hunger",21,"kid","dog","both equally",10223,"USA",0
"147","us_run_01","us_run_01_6","sequence3","us",61,"male","yes_only","white","college_assocDegree","other","other","Computer Operator","No problems, fun survey","test","hunger",22,"bear","baby","much more left",7904,"USA",-2
"148","us_run_01","us_run_01_6","sequence3","us",61,"male","yes_only","white","college_assocDegree","other","other","Computer Operator","No problems, fun survey","test","hunger",23,"computer","bug","much more right",2452,"USA",2
"149","us_run_01","us_run_01_6","sequence3","us",61,"male","yes_only","white","college_assocDegree","other","other","Computer Operator","No problems, fun survey","test","hunger",24,"stapler","kid","much more right",1363,"USA",2
"150","us_run_01","us_run_01_6","sequence3","us",61,"male","yes_only","white","college_assocDegree","other","other","Computer Operator","No problems, fun survey","test","hunger",25,"bear","car","much more left",1740,"USA",-2
"151","us_run_01","us_run_01_7","sequence2","us",23,"female","yes_only","white","college_some","none","none","customer service",NA,"practice","colder",1,"icecream","pizza","much more left",3456,"USA",-2
"152","us_run_01","us_run_01_7","sequence2","us",23,"female","yes_only","white","college_some","none","none","customer service",NA,"practice","sweeter",2,"grapes","strawberries","much more right",4107,"USA",2
"153","us_run_01","us_run_01_7","sequence2","us",23,"female","yes_only","white","college_some","none","none","customer service",NA,"test","thinking",3,"bear","grownup","both equally",2414,"USA",0
"154","us_run_01","us_run_01_7","sequence2","us",23,"female","yes_only","white","college_some","none","none","customer service",NA,"test","thinking",4,"robot","kid","much more right",1980,"USA",2
"155","us_run_01","us_run_01_7","sequence2","us",23,"female","yes_only","white","college_some","none","none","customer service",NA,"test","thinking",5,"baby","bug","much more left",1184,"USA",-2
"156","us_run_01","us_run_01_7","sequence2","us",23,"female","yes_only","white","college_some","none","none","customer service",NA,"test","thinking",6,"car","stapler","both equally",3947,"USA",0
"157","us_run_01","us_run_01_7","sequence2","us",23,"female","yes_only","white","college_some","none","none","customer service",NA,"test","thinking",7,"robot","computer","both equally",3502,"USA",0
"158","us_run_01","us_run_01_7","sequence2","us",23,"female","yes_only","white","college_some","none","none","customer service",NA,"test","thinking",8,"stapler","bear","much more right",2229,"USA",2
"159","us_run_01","us_run_01_7","sequence2","us",23,"female","yes_only","white","college_some","none","none","customer service",NA,"test","thinking",9,"car","dog","much more right",883,"USA",2
"160","us_run_01","us_run_01_7","sequence2","us",23,"female","yes_only","white","college_some","none","none","customer service",NA,"test","hunger",10,"kid","computer","much more left",1263,"USA",-2
"161","us_run_01","us_run_01_7","sequence2","us",23,"female","yes_only","white","college_some","none","none","customer service",NA,"test","hunger",11,"stapler","grownup","much more right",1180,"USA",2
"162","us_run_01","us_run_01_7","sequence2","us",23,"female","yes_only","white","college_some","none","none","customer service",NA,"test","hunger",12,"robot","car","both equally",3760,"USA",0
"163","us_run_01","us_run_01_7","sequence2","us",23,"female","yes_only","white","college_some","none","none","customer service",NA,"test","hunger",13,"bug","grownup","much more right",1547,"USA",2
"164","us_run_01","us_run_01_7","sequence2","us",23,"female","yes_only","white","college_some","none","none","customer service",NA,"test","hunger",14,"baby","robot","much more left",3404,"USA",-2
"165","us_run_01","us_run_01_7","sequence2","us",23,"female","yes_only","white","college_some","none","none","customer service",NA,"test","hunger",15,"car","bug","both equally",1179,"USA",0
"166","us_run_01","us_run_01_7","sequence2","us",23,"female","yes_only","white","college_some","none","none","customer service",NA,"test","hunger",16,"computer","stapler","both equally",6562,"USA",0
"167","us_run_01","us_run_01_7","sequence2","us",23,"female","yes_only","white","college_some","none","none","customer service",NA,"test","hunger",17,"bear","dog","both equally",2442,"USA",0
"168","us_run_01","us_run_01_7","sequence2","us",23,"female","yes_only","white","college_some","none","none","customer service",NA,"test","feelings",18,"stapler","robot","both equally",2277,"USA",0
"169","us_run_01","us_run_01_7","sequence2","us",23,"female","yes_only","white","college_some","none","none","customer service",NA,"test","feelings",19,"computer","bear","much more right",1378,"USA",2
"170","us_run_01","us_run_01_7","sequence2","us",23,"female","yes_only","white","college_some","none","none","customer service",NA,"test","feelings",20,"dog","grownup","slightly more right",2642,"USA",1
"171","us_run_01","us_run_01_7","sequence2","us",23,"female","yes_only","white","college_some","none","none","customer service",NA,"test","feelings",21,"kid","bug","slightly more left",1543,"USA",-1
"172","us_run_01","us_run_01_7","sequence2","us",23,"female","yes_only","white","college_some","none","none","customer service",NA,"test","feelings",22,"baby","car","much more left",1505,"USA",-2
"173","us_run_01","us_run_01_7","sequence2","us",23,"female","yes_only","white","college_some","none","none","customer service",NA,"test","feelings",23,"stapler","dog","much more right",1154,"USA",2
"174","us_run_01","us_run_01_7","sequence2","us",23,"female","yes_only","white","college_some","none","none","customer service",NA,"test","feelings",24,"baby","kid","slightly more right",3533,"USA",1
"175","us_run_01","us_run_01_7","sequence2","us",23,"female","yes_only","white","college_some","none","none","customer service",NA,"test","feelings",25,"robot","bug","much more right",5474,"USA",2
"176","us_run_01","us_run_01_8","sequence3","us",31,"female","yes_only","white","hs_diploma","none","none","Retail clerk",NA,"practice","colder",1,"pizza","icecream","much more right",5340,"USA",2
"177","us_run_01","us_run_01_8","sequence3","us",31,"female","yes_only","white","hs_diploma","none","none","Retail clerk",NA,"practice","sweeter",2,"strawberries","grapes","much more left",4173,"USA",-2
"178","us_run_01","us_run_01_8","sequence3","us",31,"female","yes_only","white","hs_diploma","none","none","Retail clerk",NA,"test","feelings",3,"dog","bear","much more left",2566,"USA",-2
"179","us_run_01","us_run_01_8","sequence3","us",31,"female","yes_only","white","hs_diploma","none","none","Retail clerk",NA,"test","feelings",4,"baby","robot","much more left",1566,"USA",-2
"180","us_run_01","us_run_01_8","sequence3","us",31,"female","yes_only","white","hs_diploma","none","none","Retail clerk",NA,"test","feelings",5,"stapler","computer","much more right",1940,"USA",2
"181","us_run_01","us_run_01_8","sequence3","us",31,"female","yes_only","white","hs_diploma","none","none","Retail clerk",NA,"test","feelings",6,"car","bug","much more right",1991,"USA",2
"182","us_run_01","us_run_01_8","sequence3","us",31,"female","yes_only","white","hs_diploma","none","none","Retail clerk",NA,"test","feelings",7,"kid","computer","much more left",1458,"USA",-2
"183","us_run_01","us_run_01_8","sequence3","us",31,"female","yes_only","white","hs_diploma","none","none","Retail clerk",NA,"test","feelings",8,"stapler","grownup","much more right",1066,"USA",2
"184","us_run_01","us_run_01_8","sequence3","us",31,"female","yes_only","white","hs_diploma","none","none","Retail clerk",NA,"test","feelings",9,"car","robot","much more right",1381,"USA",2
"185","us_run_01","us_run_01_8","sequence3","us",31,"female","yes_only","white","hs_diploma","none","none","Retail clerk",NA,"test","feelings",10,"bug","grownup","much more left",1072,"USA",-2
"186","us_run_01","us_run_01_8","sequence3","us",31,"female","yes_only","white","hs_diploma","none","none","Retail clerk",NA,"test","thinking",11,"bear","robot","much more right",1899,"USA",2
"187","us_run_01","us_run_01_8","sequence3","us",31,"female","yes_only","white","hs_diploma","none","none","Retail clerk",NA,"test","thinking",12,"baby","grownup","both equally",3173,"USA",0
"188","us_run_01","us_run_01_8","sequence3","us",31,"female","yes_only","white","hs_diploma","none","none","Retail clerk",NA,"test","thinking",13,"stapler","bug","much more right",2041,"USA",2
"189","us_run_01","us_run_01_8","sequence3","us",31,"female","yes_only","white","hs_diploma","none","none","Retail clerk",NA,"test","thinking",14,"bear","kid","both equally",1540,"USA",0
"190","us_run_01","us_run_01_8","sequence3","us",31,"female","yes_only","white","hs_diploma","none","none","Retail clerk",NA,"test","thinking",15,"computer","baby","both equally",1905,"USA",0
"191","us_run_01","us_run_01_8","sequence3","us",31,"female","yes_only","white","hs_diploma","none","none","Retail clerk",NA,"test","thinking",16,"grownup","car","much more left",1305,"USA",-2
"192","us_run_01","us_run_01_8","sequence3","us",31,"female","yes_only","white","hs_diploma","none","none","Retail clerk",NA,"test","thinking",17,"dog","computer","much more left",1420,"USA",-2
"193","us_run_01","us_run_01_8","sequence3","us",31,"female","yes_only","white","hs_diploma","none","none","Retail clerk",NA,"test","hunger",18,"grownup","robot","much more left",1930,"USA",-2
"194","us_run_01","us_run_01_8","sequence3","us",31,"female","yes_only","white","hs_diploma","none","none","Retail clerk",NA,"test","hunger",19,"dog","kid","much more right",1205,"USA",2
"195","us_run_01","us_run_01_8","sequence3","us",31,"female","yes_only","white","hs_diploma","none","none","Retail clerk",NA,"test","hunger",20,"bear","baby","much more right",1189,"USA",2
"196","us_run_01","us_run_01_8","sequence3","us",31,"female","yes_only","white","hs_diploma","none","none","Retail clerk",NA,"test","hunger",21,"computer","bug","much more right",1376,"USA",2
"197","us_run_01","us_run_01_8","sequence3","us",31,"female","yes_only","white","hs_diploma","none","none","Retail clerk",NA,"test","hunger",22,"stapler","kid","much more right",1030,"USA",2
"198","us_run_01","us_run_01_8","sequence3","us",31,"female","yes_only","white","hs_diploma","none","none","Retail clerk",NA,"test","hunger",23,"bear","car","much more left",1050,"USA",-2
"199","us_run_01","us_run_01_8","sequence3","us",31,"female","yes_only","white","hs_diploma","none","none","Retail clerk",NA,"test","hunger",24,"bug","dog","both equally",1775,"USA",0
"200","us_run_01","us_run_01_8","sequence3","us",31,"female","yes_only","white","hs_diploma","none","none","Retail clerk",NA,"test","hunger",25,"car","computer","both equally",1736,"USA",0
"201","us_run_01","us_run_01_9","sequence5","us",51,"male","yes_only","white","college_bachDegree","christianity_catholic","christianity_catholic","investigator","A couple of the photos did not load.","practice","colder",1,"pizza","icecream","much more left",6530,"USA",-2
"202","us_run_01","us_run_01_9","sequence5","us",51,"male","yes_only","white","college_bachDegree","christianity_catholic","christianity_catholic","investigator","A couple of the photos did not load.","practice","sweeter",2,"strawberries","grapes","much more left",6822,"USA",-2
"203","us_run_01","us_run_01_9","sequence5","us",51,"male","yes_only","white","college_bachDegree","christianity_catholic","christianity_catholic","investigator","A couple of the photos did not load.","test","hunger",3,"car","kid","both equally",6790,"USA",0
"204","us_run_01","us_run_01_9","sequence5","us",51,"male","yes_only","white","college_bachDegree","christianity_catholic","christianity_catholic","investigator","A couple of the photos did not load.","test","hunger",4,"bug","bear","much more right",3858,"USA",2
"205","us_run_01","us_run_01_9","sequence5","us",51,"male","yes_only","white","college_bachDegree","christianity_catholic","christianity_catholic","investigator","A couple of the photos did not load.","test","hunger",5,"stapler","baby","much more right",3314,"USA",2
"206","us_run_01","us_run_01_9","sequence5","us",51,"male","yes_only","white","college_bachDegree","christianity_catholic","christianity_catholic","investigator","A couple of the photos did not load.","test","hunger",6,"grownup","computer","much more left",4009,"USA",-2
"207","us_run_01","us_run_01_9","sequence5","us",51,"male","yes_only","white","college_bachDegree","christianity_catholic","christianity_catholic","investigator","A couple of the photos did not load.","test","hunger",7,"baby","dog","much more left",5450,"USA",-2
"208","us_run_01","us_run_01_9","sequence5","us",51,"male","yes_only","white","college_bachDegree","christianity_catholic","christianity_catholic","investigator","A couple of the photos did not load.","test","hunger",8,"grownup","kid","both equally",4803,"USA",0
"209","us_run_01","us_run_01_9","sequence5","us",51,"male","yes_only","white","college_bachDegree","christianity_catholic","christianity_catholic","investigator","A couple of the photos did not load.","test","hunger",9,"dog","robot","much more left",1613,"USA",-2
"210","us_run_01","us_run_01_9","sequence5","us",51,"male","yes_only","white","college_bachDegree","christianity_catholic","christianity_catholic","investigator","A couple of the photos did not load.","test","thinking",10,"bear","baby","both equally",13526,"USA",0
"211","us_run_01","us_run_01_9","sequence5","us",51,"male","yes_only","white","college_bachDegree","christianity_catholic","christianity_catholic","investigator","A couple of the photos did not load.","test","thinking",11,"bug","dog","much more right",2388,"USA",2
"212","us_run_01","us_run_01_9","sequence5","us",51,"male","yes_only","white","college_bachDegree","christianity_catholic","christianity_catholic","investigator","A couple of the photos did not load.","test","thinking",12,"computer","car","both equally",8240,"USA",0
"213","us_run_01","us_run_01_9","sequence5","us",51,"male","yes_only","white","college_bachDegree","christianity_catholic","christianity_catholic","investigator","A couple of the photos did not load.","test","thinking",13,"kid","dog","much more left",5529,"USA",-2
"214","us_run_01","us_run_01_9","sequence5","us",51,"male","yes_only","white","college_bachDegree","christianity_catholic","christianity_catholic","investigator","A couple of the photos did not load.","test","thinking",14,"bear","car","much more left",8557,"USA",-2
"215","us_run_01","us_run_01_9","sequence5","us",51,"male","yes_only","white","college_bachDegree","christianity_catholic","christianity_catholic","investigator","A couple of the photos did not load.","test","thinking",15,"stapler","kid","much more right",1331,"USA",2
"216","us_run_01","us_run_01_9","sequence5","us",51,"male","yes_only","white","college_bachDegree","christianity_catholic","christianity_catholic","investigator","A couple of the photos did not load.","test","thinking",16,"robot","grownup","much more right",1636,"USA",2
"217","us_run_01","us_run_01_9","sequence5","us",51,"male","yes_only","white","college_bachDegree","christianity_catholic","christianity_catholic","investigator","A couple of the photos did not load.","test","thinking",17,"bug","computer","slightly more left",9910,"USA",-1
"218","us_run_01","us_run_01_9","sequence5","us",51,"male","yes_only","white","college_bachDegree","christianity_catholic","christianity_catholic","investigator","A couple of the photos did not load.","test","feelings",18,"baby","computer","much more left",2276,"USA",-2
"219","us_run_01","us_run_01_9","sequence5","us",51,"male","yes_only","white","college_bachDegree","christianity_catholic","christianity_catholic","investigator","A couple of the photos did not load.","test","feelings",19,"bug","stapler","much more left",1797,"USA",-2
"220","us_run_01","us_run_01_9","sequence5","us",51,"male","yes_only","white","college_bachDegree","christianity_catholic","christianity_catholic","investigator","A couple of the photos did not load.","test","feelings",20,"grownup","car","much more left",1491,"USA",-2
"221","us_run_01","us_run_01_9","sequence5","us",51,"male","yes_only","white","college_bachDegree","christianity_catholic","christianity_catholic","investigator","A couple of the photos did not load.","test","feelings",21,"bear","kid","much more right",1728,"USA",2
"222","us_run_01","us_run_01_9","sequence5","us",51,"male","yes_only","white","college_bachDegree","christianity_catholic","christianity_catholic","investigator","A couple of the photos did not load.","test","feelings",22,"grownup","baby","much more left",3877,"USA",-2
"223","us_run_01","us_run_01_9","sequence5","us",51,"male","yes_only","white","college_bachDegree","christianity_catholic","christianity_catholic","investigator","A couple of the photos did not load.","test","feelings",23,"bear","robot","much more left",2417,"USA",-2
"224","us_run_01","us_run_01_9","sequence5","us",51,"male","yes_only","white","college_bachDegree","christianity_catholic","christianity_catholic","investigator","A couple of the photos did not load.","test","feelings",24,"computer","dog","much more right",1712,"USA",2
"225","us_run_01","us_run_01_10","sequence2","us",29,"female","yes_only","nativeAmerican","college_some","none","none","Executive","No","practice","colder",1,"pizza","icecream","much more right",7815,"US",2
"226","us_run_01","us_run_01_10","sequence2","us",29,"female","yes_only","nativeAmerican","college_some","none","none","Executive","No","practice","sweeter",2,"strawberries","grapes","much more right",7133,"US",2
"227","us_run_01","us_run_01_10","sequence2","us",29,"female","yes_only","nativeAmerican","college_some","none","none","Executive","No","test","thinking",3,"baby","bug","much more left",6252,"US",-2
"228","us_run_01","us_run_01_10","sequence2","us",29,"female","yes_only","nativeAmerican","college_some","none","none","Executive","No","test","thinking",4,"stapler","car","both equally",11329,"US",0
"229","us_run_01","us_run_01_10","sequence2","us",29,"female","yes_only","nativeAmerican","college_some","none","none","Executive","No","test","thinking",5,"grownup","bear","much more left",2748,"US",-2
"230","us_run_01","us_run_01_10","sequence2","us",29,"female","yes_only","nativeAmerican","college_some","none","none","Executive","No","test","thinking",6,"robot","computer","much more right",3328,"US",2
"231","us_run_01","us_run_01_10","sequence2","us",29,"female","yes_only","nativeAmerican","college_some","none","none","Executive","No","test","thinking",7,"stapler","bear","much more right",3678,"US",2
"232","us_run_01","us_run_01_10","sequence2","us",29,"female","yes_only","nativeAmerican","college_some","none","none","Executive","No","test","thinking",8,"kid","robot","much more right",197,"US",2
"233","us_run_01","us_run_01_10","sequence2","us",29,"female","yes_only","nativeAmerican","college_some","none","none","Executive","No","test","thinking",9,"car","dog","much more right",3017,"US",2
"234","us_run_01","us_run_01_10","sequence2","us",29,"female","yes_only","nativeAmerican","college_some","none","none","Executive","No","test","hunger",10,"grownup","bug","much more left",2598,"US",-2
"235","us_run_01","us_run_01_10","sequence2","us",29,"female","yes_only","nativeAmerican","college_some","none","none","Executive","No","test","hunger",11,"baby","robot","much more left",1800,"US",-2
"236","us_run_01","us_run_01_10","sequence2","us",29,"female","yes_only","nativeAmerican","college_some","none","none","Executive","No","test","hunger",12,"stapler","grownup","much more right",1589,"US",2
"237","us_run_01","us_run_01_10","sequence2","us",29,"female","yes_only","nativeAmerican","college_some","none","none","Executive","No","test","hunger",13,"robot","car","much more left",1536,"US",-2
"238","us_run_01","us_run_01_10","sequence2","us",29,"female","yes_only","nativeAmerican","college_some","none","none","Executive","No","test","hunger",14,"kid","computer","much more left",1135,"US",-2
"239","us_run_01","us_run_01_10","sequence2","us",29,"female","yes_only","nativeAmerican","college_some","none","none","Executive","No","test","hunger",15,"bear","dog","much more left",2953,"US",-2
"240","us_run_01","us_run_01_10","sequence2","us",29,"female","yes_only","nativeAmerican","college_some","none","none","Executive","No","test","hunger",16,"stapler","computer","much more right",5442,"US",2
"241","us_run_01","us_run_01_10","sequence2","us",29,"female","yes_only","nativeAmerican","college_some","none","none","Executive","No","test","hunger",17,"car","bug","much more right",1426,"US",2
"242","us_run_01","us_run_01_10","sequence2","us",29,"female","yes_only","nativeAmerican","college_some","none","none","Executive","No","test","feelings",18,"bug","kid","both equally",1931,"US",0
"243","us_run_01","us_run_01_10","sequence2","us",29,"female","yes_only","nativeAmerican","college_some","none","none","Executive","No","test","feelings",19,"stapler","dog","much more right",2234,"US",2
"244","us_run_01","us_run_01_10","sequence2","us",29,"female","yes_only","nativeAmerican","college_some","none","none","Executive","No","test","feelings",20,"kid","baby","both equally",1362,"US",0
"245","us_run_01","us_run_01_10","sequence2","us",29,"female","yes_only","nativeAmerican","college_some","none","none","Executive","No","test","feelings",21,"bug","robot","much more left",2612,"US",-2
"246","us_run_01","us_run_01_10","sequence2","us",29,"female","yes_only","nativeAmerican","college_some","none","none","Executive","No","test","feelings",22,"dog","grownup","both equally",1798,"US",0
"247","us_run_01","us_run_01_10","sequence2","us",29,"female","yes_only","nativeAmerican","college_some","none","none","Executive","No","test","feelings",23,"computer","bear","much more right",1696,"US",2
"248","us_run_01","us_run_01_10","sequence2","us",29,"female","yes_only","nativeAmerican","college_some","none","none","Executive","No","test","feelings",24,"car","baby","much more right",1493,"US",2
"249","us_run_01","us_run_01_10","sequence2","us",29,"female","yes_only","nativeAmerican","college_some","none","none","Executive","No","test","feelings",25,"robot","stapler","much more left",1718,"US",-2
"250","us_run_01","us_run_01_11","sequence2","us",26,"male","yes_only","white","college_some","christianity_catholic","none","Self Employed",NA,"practice","colder",1,"icecream","pizza","much more left",6567,"USA",-2
"251","us_run_01","us_run_01_11","sequence2","us",26,"male","yes_only","white","college_some","christianity_catholic","none","Self Employed",NA,"practice","sweeter",2,"grapes","strawberries","slightly more right",9264,"USA",1
"252","us_run_01","us_run_01_11","sequence2","us",26,"male","yes_only","white","college_some","christianity_catholic","none","Self Employed",NA,"test","thinking",3,"grownup","bear","much more left",8154,"USA",-2
"253","us_run_01","us_run_01_11","sequence2","us",26,"male","yes_only","white","college_some","christianity_catholic","none","Self Employed",NA,"test","thinking",4,"car","dog","much more right",4507,"USA",2
"254","us_run_01","us_run_01_11","sequence2","us",26,"male","yes_only","white","college_some","christianity_catholic","none","Self Employed",NA,"test","thinking",5,"kid","robot","much more left",4229,"USA",-2
"255","us_run_01","us_run_01_11","sequence2","us",26,"male","yes_only","white","college_some","christianity_catholic","none","Self Employed",NA,"test","thinking",6,"baby","bug","much more left",3346,"USA",-2
"256","us_run_01","us_run_01_11","sequence2","us",26,"male","yes_only","white","college_some","christianity_catholic","none","Self Employed",NA,"test","thinking",7,"bear","stapler","much more left",4414,"USA",-2
"257","us_run_01","us_run_01_11","sequence2","us",26,"male","yes_only","white","college_some","christianity_catholic","none","Self Employed",NA,"test","thinking",8,"robot","computer","both equally",7595,"USA",0
"258","us_run_01","us_run_01_11","sequence2","us",26,"male","yes_only","white","college_some","christianity_catholic","none","Self Employed",NA,"test","thinking",9,"stapler","car","both equally",9563,"USA",0
"259","us_run_01","us_run_01_11","sequence2","us",26,"male","yes_only","white","college_some","christianity_catholic","none","Self Employed",NA,"test","hunger",10,"stapler","computer","both equally",3538,"USA",0
"260","us_run_01","us_run_01_11","sequence2","us",26,"male","yes_only","white","college_some","christianity_catholic","none","Self Employed",NA,"test","hunger",11,"bug","car","much more left",2863,"USA",-2
"261","us_run_01","us_run_01_11","sequence2","us",26,"male","yes_only","white","college_some","christianity_catholic","none","Self Employed",NA,"test","hunger",12,"computer","kid","much more right",3036,"USA",2
"262","us_run_01","us_run_01_11","sequence2","us",26,"male","yes_only","white","college_some","christianity_catholic","none","Self Employed",NA,"test","hunger",13,"stapler","grownup","much more right",2368,"USA",2
"263","us_run_01","us_run_01_11","sequence2","us",26,"male","yes_only","white","college_some","christianity_catholic","none","Self Employed",NA,"test","hunger",14,"robot","baby","much more right",2522,"USA",2
"264","us_run_01","us_run_01_11","sequence2","us",26,"male","yes_only","white","college_some","christianity_catholic","none","Self Employed",NA,"test","hunger",15,"dog","bear","both equally",8626,"USA",0
"265","us_run_01","us_run_01_11","sequence2","us",26,"male","yes_only","white","college_some","christianity_catholic","none","Self Employed",NA,"test","hunger",16,"bug","grownup","much more right",6423,"USA",2
"266","us_run_01","us_run_01_11","sequence2","us",26,"male","yes_only","white","college_some","christianity_catholic","none","Self Employed",NA,"test","hunger",17,"robot","car","both equally",2485,"USA",0
"267","us_run_01","us_run_01_11","sequence2","us",26,"male","yes_only","white","college_some","christianity_catholic","none","Self Employed",NA,"test","feelings",18,"robot","stapler","both equally",2574,"USA",0
"268","us_run_01","us_run_01_11","sequence2","us",26,"male","yes_only","white","college_some","christianity_catholic","none","Self Employed",NA,"test","feelings",19,"grownup","dog","both equally",4370,"USA",0
"269","us_run_01","us_run_01_11","sequence2","us",26,"male","yes_only","white","college_some","christianity_catholic","none","Self Employed",NA,"test","feelings",20,"robot","bug","much more right",4053,"USA",2
"270","us_run_01","us_run_01_11","sequence2","us",26,"male","yes_only","white","college_some","christianity_catholic","none","Self Employed",NA,"test","feelings",21,"baby","car","much more left",2625,"USA",-2
"271","us_run_01","us_run_01_11","sequence2","us",26,"male","yes_only","white","college_some","christianity_catholic","none","Self Employed",NA,"test","feelings",22,"bug","kid","much more right",2580,"USA",2
"272","us_run_01","us_run_01_11","sequence2","us",26,"male","yes_only","white","college_some","christianity_catholic","none","Self Employed",NA,"test","feelings",23,"bear","computer","much more left",3065,"USA",-2
"273","us_run_01","us_run_01_11","sequence2","us",26,"male","yes_only","white","college_some","christianity_catholic","none","Self Employed",NA,"test","feelings",24,"kid","baby","both equally",5098,"USA",0
"274","us_run_01","us_run_01_11","sequence2","us",26,"male","yes_only","white","college_some","christianity_catholic","none","Self Employed",NA,"test","feelings",25,"stapler","dog","much more right",2443,"USA",2
"275","us_run_01","us_run_01_12","sequence1","us",25,"male","yes_only","white","college_bachDegree","christianity_protestant","christianity_protestant","Student",NA,"practice","colder",1,"icecream","pizza","much more left",4318,"United States",-2
"276","us_run_01","us_run_01_12","sequence1","us",25,"male","yes_only","white","college_bachDegree","christianity_protestant","christianity_protestant","Student",NA,"practice","sweeter",2,"grapes","strawberries","much more right",10598,"United States",2
"277","us_run_01","us_run_01_12","sequence1","us",25,"male","yes_only","white","college_bachDegree","christianity_protestant","christianity_protestant","Student",NA,"test","thinking",3,"bug","kid","slightly more right",4686,"United States",1
"278","us_run_01","us_run_01_12","sequence1","us",25,"male","yes_only","white","college_bachDegree","christianity_protestant","christianity_protestant","Student",NA,"test","thinking",4,"stapler","robot","both equally",4229,"United States",0
"279","us_run_01","us_run_01_12","sequence1","us",25,"male","yes_only","white","college_bachDegree","christianity_protestant","christianity_protestant","Student",NA,"test","thinking",5,"car","baby","much more right",2655,"United States",2
"280","us_run_01","us_run_01_12","sequence1","us",25,"male","yes_only","white","college_bachDegree","christianity_protestant","christianity_protestant","Student",NA,"test","thinking",6,"stapler","dog","much more right",1942,"United States",2
"281","us_run_01","us_run_01_12","sequence1","us",25,"male","yes_only","white","college_bachDegree","christianity_protestant","christianity_protestant","Student",NA,"test","thinking",7,"bug","robot","slightly more left",5094,"United States",-1
"282","us_run_01","us_run_01_12","sequence1","us",25,"male","yes_only","white","college_bachDegree","christianity_protestant","christianity_protestant","Student",NA,"test","thinking",8,"grownup","dog","slightly more left",3197,"United States",-1
"283","us_run_01","us_run_01_12","sequence1","us",25,"male","yes_only","white","college_bachDegree","christianity_protestant","christianity_protestant","Student",NA,"test","thinking",9,"bear","computer","much more left",2311,"United States",-2
"284","us_run_01","us_run_01_12","sequence1","us",25,"male","yes_only","white","college_bachDegree","christianity_protestant","christianity_protestant","Student",NA,"test","thinking",10,"baby","kid","both equally",2501,"United States",0
"285","us_run_01","us_run_01_12","sequence1","us",25,"male","yes_only","white","college_bachDegree","christianity_protestant","christianity_protestant","Student",NA,"test","feelings",11,"grownup","computer","much more left",3270,"United States",-2
"286","us_run_01","us_run_01_12","sequence1","us",25,"male","yes_only","white","college_bachDegree","christianity_protestant","christianity_protestant","Student",NA,"test","feelings",12,"stapler","baby","much more right",2309,"United States",2
"287","us_run_01","us_run_01_12","sequence1","us",25,"male","yes_only","white","college_bachDegree","christianity_protestant","christianity_protestant","Student",NA,"test","feelings",13,"dog","robot","much more left",3320,"United States",-2
"288","us_run_01","us_run_01_12","sequence1","us",25,"male","yes_only","white","college_bachDegree","christianity_protestant","christianity_protestant","Student",NA,"test","feelings",14,"grownup","kid","slightly more right",4949,"United States",1
"289","us_run_01","us_run_01_12","sequence1","us",25,"male","yes_only","white","college_bachDegree","christianity_protestant","christianity_protestant","Student",NA,"test","feelings",15,"bear","bug","both equally",3405,"United States",0
"290","us_run_01","us_run_01_12","sequence1","us",25,"male","yes_only","white","college_bachDegree","christianity_protestant","christianity_protestant","Student",NA,"test","feelings",16,"dog","baby","both equally",4292,"United States",0
"291","us_run_01","us_run_01_12","sequence1","us",25,"male","yes_only","white","college_bachDegree","christianity_protestant","christianity_protestant","Student",NA,"test","feelings",17,"car","kid","much more right",2559,"United States",2
"292","us_run_01","us_run_01_12","sequence1","us",25,"male","yes_only","white","college_bachDegree","christianity_protestant","christianity_protestant","Student",NA,"test","hunger",18,"dog","car","much more left",1616,"United States",-2
"293","us_run_01","us_run_01_12","sequence1","us",25,"male","yes_only","white","college_bachDegree","christianity_protestant","christianity_protestant","Student",NA,"test","hunger",19,"robot","kid","much more right",1493,"United States",2
"294","us_run_01","us_run_01_12","sequence1","us",25,"male","yes_only","white","college_bachDegree","christianity_protestant","christianity_protestant","Student",NA,"test","hunger",20,"bear","stapler","much more left",1222,"United States",-2
"295","us_run_01","us_run_01_12","sequence1","us",25,"male","yes_only","white","college_bachDegree","christianity_protestant","christianity_protestant","Student",NA,"test","hunger",21,"robot","computer","both equally",2214,"United States",0
"296","us_run_01","us_run_01_12","sequence1","us",25,"male","yes_only","white","college_bachDegree","christianity_protestant","christianity_protestant","Student",NA,"test","hunger",22,"bug","baby","slightly more right",4013,"United States",1
"297","us_run_01","us_run_01_12","sequence1","us",25,"male","yes_only","white","college_bachDegree","christianity_protestant","christianity_protestant","Student",NA,"test","hunger",23,"grownup","bear","both equally",2766,"United States",0
"298","us_run_01","us_run_01_12","sequence1","us",25,"male","yes_only","white","college_bachDegree","christianity_protestant","christianity_protestant","Student",NA,"test","hunger",24,"stapler","car","both equally",1053,"United States",0
"299","us_run_01","us_run_01_13","sequence3","us",25,"male","yes_only","asian_eastAsian","college_bachDegree","none","none","Accountant",NA,"practice","colder",1,"pizza","icecream","much more right",3478,"USA",2
"300","us_run_01","us_run_01_13","sequence3","us",25,"male","yes_only","asian_eastAsian","college_bachDegree","none","none","Accountant",NA,"practice","sweeter",2,"strawberries","grapes","much more right",2063,"USA",2
"301","us_run_01","us_run_01_13","sequence3","us",25,"male","yes_only","asian_eastAsian","college_bachDegree","none","none","Accountant",NA,"test","feelings",3,"stapler","grownup","much more right",1350,"USA",2
"302","us_run_01","us_run_01_13","sequence3","us",25,"male","yes_only","asian_eastAsian","college_bachDegree","none","none","Accountant",NA,"test","feelings",4,"robot","car","both equally",1880,"USA",0
"303","us_run_01","us_run_01_13","sequence3","us",25,"male","yes_only","asian_eastAsian","college_bachDegree","none","none","Accountant",NA,"test","feelings",5,"computer","kid","much more right",1306,"USA",2
"304","us_run_01","us_run_01_13","sequence3","us",25,"male","yes_only","asian_eastAsian","college_bachDegree","none","none","Accountant",NA,"test","feelings",6,"bug","car","both equally",1329,"USA",0
"305","us_run_01","us_run_01_13","sequence3","us",25,"male","yes_only","asian_eastAsian","college_bachDegree","none","none","Accountant",NA,"test","feelings",7,"baby","robot","much more left",1472,"USA",-2
"306","us_run_01","us_run_01_13","sequence3","us",25,"male","yes_only","asian_eastAsian","college_bachDegree","none","none","Accountant",NA,"test","feelings",8,"dog","bear","both equally",1262,"USA",0
"307","us_run_01","us_run_01_13","sequence3","us",25,"male","yes_only","asian_eastAsian","college_bachDegree","none","none","Accountant",NA,"test","feelings",9,"computer","stapler","both equally",1139,"USA",0
"308","us_run_01","us_run_01_13","sequence3","us",25,"male","yes_only","asian_eastAsian","college_bachDegree","none","none","Accountant",NA,"test","feelings",10,"grownup","bug","both equally",3148,"USA",0
"309","us_run_01","us_run_01_13","sequence3","us",25,"male","yes_only","asian_eastAsian","college_bachDegree","none","none","Accountant",NA,"test","thinking",11,"bug","stapler","much more left",1978,"USA",-2
"310","us_run_01","us_run_01_13","sequence3","us",25,"male","yes_only","asian_eastAsian","college_bachDegree","none","none","Accountant",NA,"test","thinking",12,"car","grownup","much more right",1037,"USA",2
"311","us_run_01","us_run_01_13","sequence3","us",25,"male","yes_only","asian_eastAsian","college_bachDegree","none","none","Accountant",NA,"test","thinking",13,"computer","baby","much more right",862,"USA",2
"312","us_run_01","us_run_01_13","sequence3","us",25,"male","yes_only","asian_eastAsian","college_bachDegree","none","none","Accountant",NA,"test","thinking",14,"bear","robot","much more left",1355,"USA",-2
"313","us_run_01","us_run_01_13","sequence3","us",25,"male","yes_only","asian_eastAsian","college_bachDegree","none","none","Accountant",NA,"test","thinking",15,"dog","computer","much more left",1117,"USA",-2
"314","us_run_01","us_run_01_13","sequence3","us",25,"male","yes_only","asian_eastAsian","college_bachDegree","none","none","Accountant",NA,"test","thinking",16,"bear","kid","both equally",1134,"USA",0
"315","us_run_01","us_run_01_13","sequence3","us",25,"male","yes_only","asian_eastAsian","college_bachDegree","none","none","Accountant",NA,"test","thinking",17,"baby","grownup","both equally",847,"USA",0
"316","us_run_01","us_run_01_13","sequence3","us",25,"male","yes_only","asian_eastAsian","college_bachDegree","none","none","Accountant",NA,"test","hunger",18,"bug","dog","both equally",1151,"USA",0
"317","us_run_01","us_run_01_13","sequence3","us",25,"male","yes_only","asian_eastAsian","college_bachDegree","none","none","Accountant",NA,"test","hunger",19,"car","bear","much more right",1021,"USA",2
"318","us_run_01","us_run_01_13","sequence3","us",25,"male","yes_only","asian_eastAsian","college_bachDegree","none","none","Accountant",NA,"test","hunger",20,"stapler","kid","much more right",784,"USA",2
"319","us_run_01","us_run_01_13","sequence3","us",25,"male","yes_only","asian_eastAsian","college_bachDegree","none","none","Accountant",NA,"test","hunger",21,"computer","car","both equally",945,"USA",0
"320","us_run_01","us_run_01_13","sequence3","us",25,"male","yes_only","asian_eastAsian","college_bachDegree","none","none","Accountant",NA,"test","hunger",22,"dog","kid","both equally",1456,"USA",0
"321","us_run_01","us_run_01_13","sequence3","us",25,"male","yes_only","asian_eastAsian","college_bachDegree","none","none","Accountant",NA,"test","hunger",23,"computer","bug","much more right",1247,"USA",2
"322","us_run_01","us_run_01_13","sequence3","us",25,"male","yes_only","asian_eastAsian","college_bachDegree","none","none","Accountant",NA,"test","hunger",24,"robot","grownup","much more right",1302,"USA",2
"323","us_run_01","us_run_01_13","sequence3","us",25,"male","yes_only","asian_eastAsian","college_bachDegree","none","none","Accountant",NA,"test","hunger",25,"baby","bear","both equally",1083,"USA",0
"324","us_run_01","us_run_01_14","sequence5","us",33,"male","yes_only","hispanicLatino","college_bachDegree","christianity_catholic","none","It tech",NA,"practice","colder",1,"pizza","icecream","much more right",5314,"america",2
"325","us_run_01","us_run_01_14","sequence5","us",33,"male","yes_only","hispanicLatino","college_bachDegree","christianity_catholic","none","It tech",NA,"practice","sweeter",2,"strawberries","grapes","much more left",3008,"america",-2
"326","us_run_01","us_run_01_14","sequence5","us",33,"male","yes_only","hispanicLatino","college_bachDegree","christianity_catholic","none","It tech",NA,"test","hunger",3,"grownup","kid","both equally",4333,"america",0
"327","us_run_01","us_run_01_14","sequence5","us",33,"male","yes_only","hispanicLatino","college_bachDegree","christianity_catholic","none","It tech",NA,"test","hunger",4,"robot","dog","much more right",1827,"america",2
"328","us_run_01","us_run_01_14","sequence5","us",33,"male","yes_only","hispanicLatino","college_bachDegree","christianity_catholic","none","It tech",NA,"test","hunger",5,"computer","grownup","much more right",1768,"america",2
"329","us_run_01","us_run_01_14","sequence5","us",33,"male","yes_only","hispanicLatino","college_bachDegree","christianity_catholic","none","It tech",NA,"test","hunger",6,"stapler","baby","much more right",1637,"america",2
"330","us_run_01","us_run_01_14","sequence5","us",33,"male","yes_only","hispanicLatino","college_bachDegree","christianity_catholic","none","It tech",NA,"test","hunger",7,"car","kid","much more right",1447,"america",2
"331","us_run_01","us_run_01_14","sequence5","us",33,"male","yes_only","hispanicLatino","college_bachDegree","christianity_catholic","none","It tech",NA,"test","hunger",8,"dog","baby","much more right",3323,"america",2
"332","us_run_01","us_run_01_14","sequence5","us",33,"male","yes_only","hispanicLatino","college_bachDegree","christianity_catholic","none","It tech",NA,"test","hunger",9,"bear","bug","much more left",1610,"america",-2
"333","us_run_01","us_run_01_14","sequence5","us",33,"male","yes_only","hispanicLatino","college_bachDegree","christianity_catholic","none","It tech",NA,"test","thinking",10,"bear","car","much more left",1525,"america",-2
"334","us_run_01","us_run_01_14","sequence5","us",33,"male","yes_only","hispanicLatino","college_bachDegree","christianity_catholic","none","It tech",NA,"test","thinking",11,"computer","bug","much more left",1548,"america",-2
"335","us_run_01","us_run_01_14","sequence5","us",33,"male","yes_only","hispanicLatino","college_bachDegree","christianity_catholic","none","It tech",NA,"test","thinking",12,"dog","kid","much more right",2270,"america",2
"336","us_run_01","us_run_01_14","sequence5","us",33,"male","yes_only","hispanicLatino","college_bachDegree","christianity_catholic","none","It tech",NA,"test","thinking",13,"car","computer","much more right",1683,"america",2
"337","us_run_01","us_run_01_14","sequence5","us",33,"male","yes_only","hispanicLatino","college_bachDegree","christianity_catholic","none","It tech",NA,"test","thinking",14,"kid","stapler","much more left",1689,"america",-2
"338","us_run_01","us_run_01_14","sequence5","us",33,"male","yes_only","hispanicLatino","college_bachDegree","christianity_catholic","none","It tech",NA,"test","thinking",15,"baby","bear","much more left",1907,"america",-2
"339","us_run_01","us_run_01_14","sequence5","us",33,"male","yes_only","hispanicLatino","college_bachDegree","christianity_catholic","none","It tech",NA,"test","thinking",16,"robot","grownup","much more right",1757,"america",2
"340","us_run_01","us_run_01_14","sequence5","us",33,"male","yes_only","hispanicLatino","college_bachDegree","christianity_catholic","none","It tech",NA,"test","thinking",17,"bug","dog","much more right",1724,"america",2
"341","us_run_01","us_run_01_14","sequence5","us",33,"male","yes_only","hispanicLatino","college_bachDegree","christianity_catholic","none","It tech",NA,"test","feelings",18,"stapler","bug","much more right",1388,"america",2
"342","us_run_01","us_run_01_14","sequence5","us",33,"male","yes_only","hispanicLatino","college_bachDegree","christianity_catholic","none","It tech",NA,"test","feelings",19,"dog","computer","much more left",2022,"america",-2
"343","us_run_01","us_run_01_14","sequence5","us",33,"male","yes_only","hispanicLatino","college_bachDegree","christianity_catholic","none","It tech",NA,"test","feelings",20,"grownup","baby","both equally",2035,"america",0
"344","us_run_01","us_run_01_14","sequence5","us",33,"male","yes_only","hispanicLatino","college_bachDegree","christianity_catholic","none","It tech",NA,"test","feelings",21,"bear","kid","much more right",1732,"america",2
"345","us_run_01","us_run_01_14","sequence5","us",33,"male","yes_only","hispanicLatino","college_bachDegree","christianity_catholic","none","It tech",NA,"test","feelings",22,"baby","computer","much more left",1068,"america",-2
"346","us_run_01","us_run_01_14","sequence5","us",33,"male","yes_only","hispanicLatino","college_bachDegree","christianity_catholic","none","It tech",NA,"test","feelings",23,"car","grownup","much more right",1107,"america",2
"347","us_run_01","us_run_01_14","sequence5","us",33,"male","yes_only","hispanicLatino","college_bachDegree","christianity_catholic","none","It tech",NA,"test","feelings",24,"robot","bear","much more right",1157,"america",2
"348","us_run_01","us_run_01_15","sequence1","us",33,"male","yes_only","white","hs_diploma","christianity_other","none","Graphic Artist",NA,"practice","colder",1,"pizza","icecream","much more right",9865,"USA",2
"349","us_run_01","us_run_01_15","sequence1","us",33,"male","yes_only","white","hs_diploma","christianity_other","none","Graphic Artist",NA,"practice","sweeter",2,"strawberries","grapes","slightly more right",6261,"USA",1
"350","us_run_01","us_run_01_15","sequence1","us",33,"male","yes_only","white","hs_diploma","christianity_other","none","Graphic Artist",NA,"test","thinking",3,"robot","stapler","much more left",5219,"USA",-2
"351","us_run_01","us_run_01_15","sequence1","us",33,"male","yes_only","white","hs_diploma","christianity_other","none","Graphic Artist",NA,"test","thinking",4,"kid","baby","slightly more left",6567,"USA",-1
"352","us_run_01","us_run_01_15","sequence1","us",33,"male","yes_only","white","hs_diploma","christianity_other","none","Graphic Artist",NA,"test","thinking",5,"bug","robot","slightly more left",7815,"USA",-1
"353","us_run_01","us_run_01_15","sequence1","us",33,"male","yes_only","white","hs_diploma","christianity_other","none","Graphic Artist",NA,"test","thinking",6,"stapler","dog","much more right",2597,"USA",2
"354","us_run_01","us_run_01_15","sequence1","us",33,"male","yes_only","white","hs_diploma","christianity_other","none","Graphic Artist",NA,"test","thinking",7,"bear","computer","much more left",5936,"USA",-2
"355","us_run_01","us_run_01_15","sequence1","us",33,"male","yes_only","white","hs_diploma","christianity_other","none","Graphic Artist",NA,"test","thinking",8,"dog","grownup","slightly more right",428193,"USA",1
"356","us_run_01","us_run_01_15","sequence1","us",33,"male","yes_only","white","hs_diploma","christianity_other","none","Graphic Artist",NA,"test","thinking",9,"bug","kid","slightly more right",4808,"USA",1
"357","us_run_01","us_run_01_15","sequence1","us",33,"male","yes_only","white","hs_diploma","christianity_other","none","Graphic Artist",NA,"test","thinking",10,"car","baby","much more right",3087,"USA",2
"358","us_run_01","us_run_01_15","sequence1","us",33,"male","yes_only","white","hs_diploma","christianity_other","none","Graphic Artist",NA,"test","feelings",11,"grownup","computer","much more left",1821,"USA",-2
"359","us_run_01","us_run_01_15","sequence1","us",33,"male","yes_only","white","hs_diploma","christianity_other","none","Graphic Artist",NA,"test","feelings",12,"bear","bug","slightly more left",2993,"USA",-1
"360","us_run_01","us_run_01_15","sequence1","us",33,"male","yes_only","white","hs_diploma","christianity_other","none","Graphic Artist",NA,"test","feelings",13,"robot","dog","much more right",2199,"USA",2
"361","us_run_01","us_run_01_15","sequence1","us",33,"male","yes_only","white","hs_diploma","christianity_other","none","Graphic Artist",NA,"test","feelings",14,"grownup","kid","both equally",4051,"USA",0
"362","us_run_01","us_run_01_15","sequence1","us",33,"male","yes_only","white","hs_diploma","christianity_other","none","Graphic Artist",NA,"test","feelings",15,"baby","dog","slightly more left",6701,"USA",-1
"363","us_run_01","us_run_01_15","sequence1","us",33,"male","yes_only","white","hs_diploma","christianity_other","none","Graphic Artist",NA,"test","feelings",16,"car","kid","much more right",1816,"USA",2
"364","us_run_01","us_run_01_15","sequence1","us",33,"male","yes_only","white","hs_diploma","christianity_other","none","Graphic Artist",NA,"test","feelings",17,"baby","stapler","much more left",1397,"USA",-2
"365","us_run_01","us_run_01_15","sequence1","us",33,"male","yes_only","white","hs_diploma","christianity_other","none","Graphic Artist",NA,"test","hunger",18,"robot","kid","much more right",1603,"USA",2
"366","us_run_01","us_run_01_15","sequence1","us",33,"male","yes_only","white","hs_diploma","christianity_other","none","Graphic Artist",NA,"test","hunger",19,"car","stapler","slightly more left",4647,"USA",-1
"367","us_run_01","us_run_01_15","sequence1","us",33,"male","yes_only","white","hs_diploma","christianity_other","none","Graphic Artist",NA,"test","hunger",20,"baby","bug","both equally",3685,"USA",0
"368","us_run_01","us_run_01_15","sequence1","us",33,"male","yes_only","white","hs_diploma","christianity_other","none","Graphic Artist",NA,"test","hunger",21,"robot","computer","both equally",17659,"USA",0
"369","us_run_01","us_run_01_15","sequence1","us",33,"male","yes_only","white","hs_diploma","christianity_other","none","Graphic Artist",NA,"test","hunger",22,"bear","grownup","both equally",2683,"USA",0
"370","us_run_01","us_run_01_15","sequence1","us",33,"male","yes_only","white","hs_diploma","christianity_other","none","Graphic Artist",NA,"test","hunger",23,"car","dog","much more right",1653,"USA",2
"371","us_run_01","us_run_01_15","sequence1","us",33,"male","yes_only","white","hs_diploma","christianity_other","none","Graphic Artist",NA,"test","hunger",24,"stapler","bear","much more right",1452,"USA",2
"372","us_run_01","us_run_01_16","sequence4","us",29,"male","yes_only","white","college_assocDegree","christianity_catholic","christianity_catholic, none, prefNo","Tech Journalist","It was nice, thank you.","practice","colder",1,"icecream","pizza","much more left",5569,"Unted States",-2
"373","us_run_01","us_run_01_16","sequence4","us",29,"male","yes_only","white","college_assocDegree","christianity_catholic","christianity_catholic, none, prefNo","Tech Journalist","It was nice, thank you.","practice","sweeter",2,"grapes","strawberries","both equally",4795,"Unted States",0
"374","us_run_01","us_run_01_16","sequence4","us",29,"male","yes_only","white","college_assocDegree","christianity_catholic","christianity_catholic, none, prefNo","Tech Journalist","It was nice, thank you.","test","feelings",3,"bear","car","much more left",2406,"Unted States",-2
"375","us_run_01","us_run_01_16","sequence4","us",29,"male","yes_only","white","college_assocDegree","christianity_catholic","christianity_catholic, none, prefNo","Tech Journalist","It was nice, thank you.","test","feelings",4,"bug","computer","much more left",1309,"Unted States",-2
"376","us_run_01","us_run_01_16","sequence4","us",29,"male","yes_only","white","college_assocDegree","christianity_catholic","christianity_catholic, none, prefNo","Tech Journalist","It was nice, thank you.","test","feelings",5,"stapler","kid","much more right",1285,"Unted States",2
"377","us_run_01","us_run_01_16","sequence4","us",29,"male","yes_only","white","college_assocDegree","christianity_catholic","christianity_catholic, none, prefNo","Tech Journalist","It was nice, thank you.","test","feelings",6,"car","computer","both equally",4444,"Unted States",0
"378","us_run_01","us_run_01_16","sequence4","us",29,"male","yes_only","white","college_assocDegree","christianity_catholic","christianity_catholic, none, prefNo","Tech Journalist","It was nice, thank you.","test","feelings",7,"bear","baby","both equally",2405,"Unted States",0
"379","us_run_01","us_run_01_16","sequence4","us",29,"male","yes_only","white","college_assocDegree","christianity_catholic","christianity_catholic, none, prefNo","Tech Journalist","It was nice, thank you.","test","feelings",8,"dog","bug","both equally",964,"Unted States",0
"380","us_run_01","us_run_01_16","sequence4","us",29,"male","yes_only","white","college_assocDegree","christianity_catholic","christianity_catholic, none, prefNo","Tech Journalist","It was nice, thank you.","test","feelings",9,"robot","grownup","much more right",2069,"Unted States",2
"381","us_run_01","us_run_01_16","sequence4","us",29,"male","yes_only","white","college_assocDegree","christianity_catholic","christianity_catholic, none, prefNo","Tech Journalist","It was nice, thank you.","test","feelings",10,"dog","kid","both equally",1844,"Unted States",0
"382","us_run_01","us_run_01_16","sequence4","us",29,"male","yes_only","white","college_assocDegree","christianity_catholic","christianity_catholic, none, prefNo","Tech Journalist","It was nice, thank you.","test","hunger",11,"robot","stapler","both equally",4583,"Unted States",0
"383","us_run_01","us_run_01_16","sequence4","us",29,"male","yes_only","white","college_assocDegree","christianity_catholic","christianity_catholic, none, prefNo","Tech Journalist","It was nice, thank you.","test","hunger",12,"grownup","dog","both equally",1589,"Unted States",0
"384","us_run_01","us_run_01_16","sequence4","us",29,"male","yes_only","white","college_assocDegree","christianity_catholic","christianity_catholic, none, prefNo","Tech Journalist","It was nice, thank you.","test","hunger",13,"robot","bug","much more right",2029,"Unted States",2
"385","us_run_01","us_run_01_16","sequence4","us",29,"male","yes_only","white","college_assocDegree","christianity_catholic","christianity_catholic, none, prefNo","Tech Journalist","It was nice, thank you.","test","hunger",14,"car","baby","much more right",1165,"Unted States",2
"386","us_run_01","us_run_01_16","sequence4","us",29,"male","yes_only","white","college_assocDegree","christianity_catholic","christianity_catholic, none, prefNo","Tech Journalist","It was nice, thank you.","test","hunger",15,"dog","stapler","much more left",1141,"Unted States",-2
"387","us_run_01","us_run_01_16","sequence4","us",29,"male","yes_only","white","college_assocDegree","christianity_catholic","christianity_catholic, none, prefNo","Tech Journalist","It was nice, thank you.","test","hunger",16,"kid","baby","both equally",1301,"Unted States",0
"388","us_run_01","us_run_01_16","sequence4","us",29,"male","yes_only","white","college_assocDegree","christianity_catholic","christianity_catholic, none, prefNo","Tech Journalist","It was nice, thank you.","test","hunger",17,"computer","bear","much more right",1548,"Unted States",2
"389","us_run_01","us_run_01_16","sequence4","us",29,"male","yes_only","white","college_assocDegree","christianity_catholic","christianity_catholic, none, prefNo","Tech Journalist","It was nice, thank you.","test","hunger",18,"kid","bug","both equally",1181,"Unted States",0
"390","us_run_01","us_run_01_16","sequence4","us",29,"male","yes_only","white","college_assocDegree","christianity_catholic","christianity_catholic, none, prefNo","Tech Journalist","It was nice, thank you.","test","thinking",19,"robot","baby","much more right",5206,"Unted States",2
"391","us_run_01","us_run_01_16","sequence4","us",29,"male","yes_only","white","college_assocDegree","christianity_catholic","christianity_catholic, none, prefNo","Tech Journalist","It was nice, thank you.","test","thinking",20,"grownup","bug","slightly more left",3517,"Unted States",-1
"392","us_run_01","us_run_01_16","sequence4","us",29,"male","yes_only","white","college_assocDegree","christianity_catholic","christianity_catholic, none, prefNo","Tech Journalist","It was nice, thank you.","test","thinking",21,"car","robot","slightly more right",5325,"Unted States",1
"393","us_run_01","us_run_01_16","sequence4","us",29,"male","yes_only","white","college_assocDegree","christianity_catholic","christianity_catholic, none, prefNo","Tech Journalist","It was nice, thank you.","test","thinking",22,"computer","kid","much more right",1626,"Unted States",2
"394","us_run_01","us_run_01_16","sequence4","us",29,"male","yes_only","white","college_assocDegree","christianity_catholic","christianity_catholic, none, prefNo","Tech Journalist","It was nice, thank you.","test","thinking",23,"bug","car","much more left",1555,"Unted States",-2
"395","us_run_01","us_run_01_16","sequence4","us",29,"male","yes_only","white","college_assocDegree","christianity_catholic","christianity_catholic, none, prefNo","Tech Journalist","It was nice, thank you.","test","thinking",24,"grownup","stapler","much more left",1204,"Unted States",-2
"396","us_run_01","us_run_01_16","sequence4","us",29,"male","yes_only","white","college_assocDegree","christianity_catholic","christianity_catholic, none, prefNo","Tech Journalist","It was nice, thank you.","test","thinking",25,"dog","bear","both equally",1171,"Unted States",0
"397","us_run_01","us_run_01_16","sequence4","us",29,"male","yes_only","white","college_assocDegree","christianity_catholic","christianity_catholic, none, prefNo","Tech Journalist","It was nice, thank you.","test","thinking",26,"stapler","computer","slightly more right",2076,"Unted States",1
"398","us_run_01","us_run_01_17","sequence5","us",29,"female","yes_only","white","college_assocDegree","none","none","customer service representative",NA,"practice","colder",1,"pizza","icecream","much more right",9782,"US",2
"399","us_run_01","us_run_01_17","sequence5","us",29,"female","yes_only","white","college_assocDegree","none","none","customer service representative",NA,"practice","sweeter",2,"strawberries","grapes","much more right",1774,"US",2
"400","us_run_01","us_run_01_17","sequence5","us",29,"female","yes_only","white","college_assocDegree","none","none","customer service representative",NA,"test","hunger",3,"bug","bear","much more right",1565,"US",2
"401","us_run_01","us_run_01_17","sequence5","us",29,"female","yes_only","white","college_assocDegree","none","none","customer service representative",NA,"test","hunger",4,"dog","baby","much more right",168,"US",2
"402","us_run_01","us_run_01_17","sequence5","us",29,"female","yes_only","white","college_assocDegree","none","none","customer service representative",NA,"test","hunger",5,"kid","grownup","much more right",1748,"US",2
"403","us_run_01","us_run_01_17","sequence5","us",29,"female","yes_only","white","college_assocDegree","none","none","customer service representative",NA,"test","hunger",6,"dog","robot","much more left",1549,"US",-2
"404","us_run_01","us_run_01_17","sequence5","us",29,"female","yes_only","white","college_assocDegree","none","none","customer service representative",NA,"test","hunger",7,"car","kid","much more right",1454,"US",2
"405","us_run_01","us_run_01_17","sequence5","us",29,"female","yes_only","white","college_assocDegree","none","none","customer service representative",NA,"test","hunger",8,"baby","stapler","much more left",2334,"US",-2
"406","us_run_01","us_run_01_17","sequence5","us",29,"female","yes_only","white","college_assocDegree","none","none","customer service representative",NA,"test","hunger",9,"grownup","computer","much more left",885,"US",-2
"407","us_run_01","us_run_01_17","sequence5","us",29,"female","yes_only","white","college_assocDegree","none","none","customer service representative",NA,"test","thinking",10,"kid","dog","both equally",5461,"US",0
"408","us_run_01","us_run_01_17","sequence5","us",29,"female","yes_only","white","college_assocDegree","none","none","customer service representative",NA,"test","thinking",11,"car","bear","much more right",1815,"US",2
"409","us_run_01","us_run_01_17","sequence5","us",29,"female","yes_only","white","college_assocDegree","none","none","customer service representative",NA,"test","thinking",12,"kid","stapler","much more left",1582,"US",-2
"410","us_run_01","us_run_01_17","sequence5","us",29,"female","yes_only","white","college_assocDegree","none","none","customer service representative",NA,"test","thinking",13,"grownup","robot","much more left",823,"US",-2
"411","us_run_01","us_run_01_17","sequence5","us",29,"female","yes_only","white","college_assocDegree","none","none","customer service representative",NA,"test","thinking",14,"bug","computer","much more left",948,"US",-2
"412","us_run_01","us_run_01_17","sequence5","us",29,"female","yes_only","white","college_assocDegree","none","none","customer service representative",NA,"test","thinking",15,"bear","baby","both equally",1926,"US",0
"413","us_run_01","us_run_01_17","sequence5","us",29,"female","yes_only","white","college_assocDegree","none","none","customer service representative",NA,"test","thinking",16,"computer","car","much more left",2359,"US",-2
"414","us_run_01","us_run_01_17","sequence5","us",29,"female","yes_only","white","college_assocDegree","none","none","customer service representative",NA,"test","thinking",17,"dog","bug","both equally",1332,"US",0
"415","us_run_01","us_run_01_17","sequence5","us",29,"female","yes_only","white","college_assocDegree","none","none","customer service representative",NA,"test","feelings",18,"baby","computer","much more left",2267,"US",-2
"416","us_run_01","us_run_01_17","sequence5","us",29,"female","yes_only","white","college_assocDegree","none","none","customer service representative",NA,"test","feelings",19,"stapler","bug","slightly more right",2418,"US",1
"417","us_run_01","us_run_01_17","sequence5","us",29,"female","yes_only","white","college_assocDegree","none","none","customer service representative",NA,"test","feelings",20,"computer","dog","much more right",1537,"US",2
"418","us_run_01","us_run_01_17","sequence5","us",29,"female","yes_only","white","college_assocDegree","none","none","customer service representative",NA,"test","feelings",21,"robot","bear","much more right",1490,"US",2
"419","us_run_01","us_run_01_17","sequence5","us",29,"female","yes_only","white","college_assocDegree","none","none","customer service representative",NA,"test","feelings",22,"baby","grownup","both equally",1224,"US",0
"420","us_run_01","us_run_01_17","sequence5","us",29,"female","yes_only","white","college_assocDegree","none","none","customer service representative",NA,"test","feelings",23,"kid","bear","both equally",1626,"US",0
"421","us_run_01","us_run_01_17","sequence5","us",29,"female","yes_only","white","college_assocDegree","none","none","customer service representative",NA,"test","feelings",24,"car","grownup","much more right",1153,"US",2
"422","us_run_01","us_run_01_18","sequence6","us",31,"male","yes_only","white","college_assocDegree","none","none","Retail Sales",NA,"practice","colder",1,"pizza","icecream","much more right",3028,"America",2
"423","us_run_01","us_run_01_18","sequence6","us",31,"male","yes_only","white","college_assocDegree","none","none","Retail Sales",NA,"practice","sweeter",2,"strawberries","grapes","slightly more right",5411,"America",1
"424","us_run_01","us_run_01_18","sequence6","us",31,"male","yes_only","white","college_assocDegree","none","none","Retail Sales",NA,"test","hunger",3,"bear","robot","much more left",2813,"America",-2
"425","us_run_01","us_run_01_18","sequence6","us",31,"male","yes_only","white","college_assocDegree","none","none","Retail Sales",NA,"test","hunger",4,"dog","computer","much more left",2916,"America",-2
"426","us_run_01","us_run_01_18","sequence6","us",31,"male","yes_only","white","college_assocDegree","none","none","Retail Sales",NA,"test","hunger",5,"baby","grownup","slightly more left",4054,"America",-1
"427","us_run_01","us_run_01_18","sequence6","us",31,"male","yes_only","white","college_assocDegree","none","none","Retail Sales",NA,"test","hunger",6,"kid","bear","both equally",4736,"America",0
"428","us_run_01","us_run_01_18","sequence6","us",31,"male","yes_only","white","college_assocDegree","none","none","Retail Sales",NA,"test","hunger",7,"stapler","bug","much more right",2701,"America",2
"429","us_run_01","us_run_01_18","sequence6","us",31,"male","yes_only","white","college_assocDegree","none","none","Retail Sales",NA,"test","hunger",8,"grownup","car","much more left",2068,"America",-2
"430","us_run_01","us_run_01_18","sequence6","us",31,"male","yes_only","white","college_assocDegree","none","none","Retail Sales",NA,"test","hunger",9,"computer","baby","much more right",2151,"America",2
"431","us_run_01","us_run_01_18","sequence6","us",31,"male","yes_only","white","college_assocDegree","none","none","Retail Sales",NA,"test","feelings",10,"dog","car","much more left",2303,"America",-2
"432","us_run_01","us_run_01_18","sequence6","us",31,"male","yes_only","white","college_assocDegree","none","none","Retail Sales",NA,"test","feelings",11,"kid","robot","much more left",2025,"America",-2
"433","us_run_01","us_run_01_18","sequence6","us",31,"male","yes_only","white","college_assocDegree","none","none","Retail Sales",NA,"test","feelings",12,"bear","stapler","much more left",2561,"America",-2
"434","us_run_01","us_run_01_18","sequence6","us",31,"male","yes_only","white","college_assocDegree","none","none","Retail Sales",NA,"test","feelings",13,"bug","baby","much more right",4578,"America",2
"435","us_run_01","us_run_01_18","sequence6","us",31,"male","yes_only","white","college_assocDegree","none","none","Retail Sales",NA,"test","feelings",14,"stapler","car","both equally",2296,"America",0
"436","us_run_01","us_run_01_18","sequence6","us",31,"male","yes_only","white","college_assocDegree","none","none","Retail Sales",NA,"test","feelings",15,"bear","grownup","slightly more right",2351,"America",1
"437","us_run_01","us_run_01_18","sequence6","us",31,"male","yes_only","white","college_assocDegree","none","none","Retail Sales",NA,"test","feelings",16,"robot","computer","both equally",2388,"America",0
"438","us_run_01","us_run_01_18","sequence6","us",31,"male","yes_only","white","college_assocDegree","none","none","Retail Sales",NA,"test","thinking",17,"grownup","computer","much more left",1988,"America",-2
"439","us_run_01","us_run_01_18","sequence6","us",31,"male","yes_only","white","college_assocDegree","none","none","Retail Sales",NA,"test","thinking",18,"kid","car","much more left",1365,"America",-2
"440","us_run_01","us_run_01_18","sequence6","us",31,"male","yes_only","white","college_assocDegree","none","none","Retail Sales",NA,"test","thinking",19,"baby","dog","slightly more left",2698,"America",-1
"441","us_run_01","us_run_01_18","sequence6","us",31,"male","yes_only","white","college_assocDegree","none","none","Retail Sales",NA,"test","thinking",20,"kid","grownup","slightly more right",4851,"America",1
"442","us_run_01","us_run_01_18","sequence6","us",31,"male","yes_only","white","college_assocDegree","none","none","Retail Sales",NA,"test","thinking",21,"bear","bug","slightly more left",3094,"America",-1
"443","us_run_01","us_run_01_18","sequence6","us",31,"male","yes_only","white","college_assocDegree","none","none","Retail Sales",NA,"test","thinking",22,"dog","robot","much more left",1606,"America",-2
"444","us_run_01","us_run_01_18","sequence6","us",31,"male","yes_only","white","college_assocDegree","none","none","Retail Sales",NA,"test","thinking",23,"baby","stapler","much more left",2187,"America",-2
"445","us_run_01","us_run_01_19","sequence4","us",25,"male","yes_only","white","hs_diploma","none","none","data entry",NA,"practice","colder",1,"pizza","icecream","much more right",3862,"united states",2
"446","us_run_01","us_run_01_19","sequence4","us",25,"male","yes_only","white","hs_diploma","none","none","data entry",NA,"practice","sweeter",2,"strawberries","grapes","much more right",7137,"united states",2
"447","us_run_01","us_run_01_19","sequence4","us",25,"male","yes_only","white","hs_diploma","none","none","data entry",NA,"test","feelings",3,"dog","kid","both equally",4300,"united states",0
"448","us_run_01","us_run_01_19","sequence4","us",25,"male","yes_only","white","hs_diploma","none","none","data entry",NA,"test","feelings",4,"bear","car","much more left",2435,"united states",-2
"449","us_run_01","us_run_01_19","sequence4","us",25,"male","yes_only","white","hs_diploma","none","none","data entry",NA,"test","feelings",5,"kid","stapler","much more left",1897,"united states",-2
"450","us_run_01","us_run_01_19","sequence4","us",25,"male","yes_only","white","hs_diploma","none","none","data entry",NA,"test","feelings",6,"computer","car","both equally",4852,"united states",0
"451","us_run_01","us_run_01_19","sequence4","us",25,"male","yes_only","white","hs_diploma","none","none","data entry",NA,"test","feelings",7,"dog","bug","much more left",2878,"united states",-2
"452","us_run_01","us_run_01_19","sequence4","us",25,"male","yes_only","white","hs_diploma","none","none","data entry",NA,"test","feelings",8,"grownup","robot","much more left",1922,"united states",-2
"453","us_run_01","us_run_01_19","sequence4","us",25,"male","yes_only","white","hs_diploma","none","none","data entry",NA,"test","feelings",9,"computer","bug","much more right",4556,"united states",2
"454","us_run_01","us_run_01_19","sequence4","us",25,"male","yes_only","white","hs_diploma","none","none","data entry",NA,"test","feelings",10,"bear","baby","much more right",2670,"united states",2
"455","us_run_01","us_run_01_19","sequence4","us",25,"male","yes_only","white","hs_diploma","none","none","data entry",NA,"test","hunger",11,"grownup","dog","both equally",1810,"united states",0
"456","us_run_01","us_run_01_19","sequence4","us",25,"male","yes_only","white","hs_diploma","none","none","data entry",NA,"test","hunger",12,"bug","robot","much more left",1580,"united states",-2
